data_pbso4

_space_group_name_H-M_alt              'P n m a'
_space_group_IT_coordinate_system_code  abc

_cell_length_a       8.46924(7)
_cell_length_b       5.391
_cell_length_c       6.9506
_cell_angle_alpha   90.0
_cell_angle_beta    90.0
_cell_angle_gamma   90.0

loop_
 _atom_site_label
 _atom_site_type_symbol
 _atom_site_fract_x
 _atom_site_fract_y
 _atom_site_fract_z
 _atom_site_occupancy
 _atom_site_adp_type
 _atom_site_B_iso_or_equiv
  Pb  Pb   0.1876   0.25   0.167   1.0   Biso  1.3729
  S   S    0.0654   0.25   0.684   1.0   Biso  0.3777
  O1  O    0.9082   0.25   0.5954  1.0   Biso  1.9764
  O2  O    0.1935   0.25   0.5432  1.0   Biso  1.4456
  O3  O    0.0811   0.0272 0.8086  1.0   Biso  1.2822

data_pnd

_range_2theta_min   10.0
_range_2theta_max  155.45

_setup_wavelength      1.91
_setup_offset_2theta  -0.1406

_pd_instr_resolution_U  0.139()
_pd_instr_resolution_V -0.412()
_pd_instr_resolution_W  0.386()
_pd_instr_resolution_X  0.0
_pd_instr_resolution_Y  0.088()

loop_
 _phase_label
 _phase_scale
  pbso4   1.460()

loop_
 _pd_background_2theta
 _pd_background_intensity
   11.0   206.1624
   15.0   194.7500
   20.0   194.5050
   30.0   188.4375
   50.0   207.7633
   70.0   201.7002
  120.0   244.4525
  153.0   226.0595

loop_
 _pd_meas_2theta
 _pd_meas_intensity
 _pd_meas_intensity_sigma
    10.0    220.0   14.8324
   10.05    214.0   14.6287
    10.1    219.0   14.7986
   10.15    224.0   14.9666
    10.2    198.0   14.0712
   10.25    229.0   15.1327
    10.3    224.0   14.9666
   10.35    216.0   14.6969
    10.4    202.0   14.2127
   10.45    229.0   15.1327
    10.5    202.0   14.2127
   10.55    215.0   14.6629
    10.6    215.0   14.6629
   10.65    196.0      14.0
    10.7    235.0   15.3297
   10.75    207.0   14.3875
    10.8    205.0   14.3178
   10.85    238.0   15.4272
    10.9    202.0   14.2127
   10.95    213.0   14.5945
    11.0    226.0   15.0333
   11.05    198.0   14.0712
    11.1    222.0   14.8997
   11.15    186.0   13.6382
    11.2    216.0   14.6969
   11.25    218.0   14.7648
    11.3    225.0      15.0
   11.35    200.0   14.1421
    11.4    196.0      14.0
   11.45    224.0   14.9666
    11.5    199.0   14.1067
   11.55    204.0   14.2829
    11.6    189.0   13.7477
   11.65    211.0   14.5258
    11.7    190.0    13.784
   11.75    184.0   13.5647
    11.8    204.0   14.2829
   11.85    204.0   14.2829
    11.9    219.0   14.7986
   11.95    207.0   14.3875
    12.0    227.0   15.0665
   12.05    211.0   10.2713
    12.1    193.0    9.8234
   12.15    206.0   10.1489
    12.2    208.0    10.198
   12.25    191.0    9.7724
    12.3    194.0    9.8489
   12.35    185.0    9.6177
    12.4    200.0      10.0
   12.45    203.0   10.0747
    12.5    197.0    9.9247
   12.55    203.0   10.0747
    12.6    200.0      10.0
   12.65    200.0      10.0
    12.7    205.0   10.1242
   12.75    208.0    10.198
    12.8    205.0   10.1242
   12.85    201.0    10.025
    12.9    221.0   10.5119
   12.95    218.0   10.4403
    13.0    218.0   10.4403
   13.05    216.0   10.3923
    13.1    202.0   10.0499
   13.15    206.0   10.1489
    13.2    197.0    9.9247
   13.25    210.0    10.247
    13.3    199.0     9.975
   13.35    219.0   10.4642
    13.4    192.0     9.798
   13.45    211.0   10.2713
    13.5    199.0     9.975
   13.55    196.0    9.8995
    13.6    195.0    9.8742
   13.65    203.0   10.0747
    13.7    202.0   10.0499
   13.75    200.0      10.0
    13.8    199.0     9.975
   13.85    191.0    9.7724
    13.9    204.0   10.0995
   13.95    191.0    9.7724
    14.0    200.0      10.0
   14.05    199.0     9.975
    14.1    197.0    9.9247
   14.15    202.0   10.0499
    14.2    210.0    10.247
   14.25    202.0   10.0499
    14.3    198.0    9.9499
   14.35    191.0    9.7724
    14.4    194.0    9.8489
   14.45    198.0    9.9499
    14.5    194.0    9.8489
   14.55    193.0    9.8234
    14.6    212.0   10.2956
   14.65    214.0   10.3441
    14.7    197.0    9.9247
   14.75    195.0    9.8742
    14.8    205.0   10.1242
   14.85    209.0   10.2225
    14.9    203.0   10.0747
   14.95    197.0    9.9247
    15.0    191.0    9.7724
   15.05    192.0     9.798
    15.1    215.0   10.3682
   15.15    194.0    9.8489
    15.2    189.0    9.7211
   15.25    188.0    9.6954
    15.3    202.0   10.0499
   15.35    201.0    10.025
    15.4    198.0    9.9499
   15.45    208.0    10.198
    15.5    197.0    9.9247
   15.55    187.0    9.6695
    15.6    187.0    9.6695
   15.65    190.0    9.7468
    15.7    197.0    9.9247
   15.75    200.0      10.0
    15.8    193.0    9.8234
   15.85    180.0    9.4868
    15.9    194.0    9.8489
   15.95    206.0   10.1489
    16.0    195.0    9.8742
   16.05    193.0    9.8234
    16.1    205.0   10.1242
   16.15    194.0    9.8489
    16.2    196.0    9.8995
   16.25    194.0    9.8489
    16.3    199.0     9.975
   16.35    207.0   10.1735
    16.4    188.0    9.6954
   16.45    203.0   10.0747
    16.5    188.0    9.6954
   16.55    180.0    9.4868
    16.6    198.0    9.9499
   16.65    200.0      10.0
    16.7    201.0    10.025
   16.75    210.0    10.247
    16.8    206.0   10.1489
   16.85    189.0    9.7211
    16.9    194.0    9.8489
   16.95    187.0    9.6695
    17.0    195.0    9.8742
   17.05    201.0    10.025
    17.1    197.0    9.9247
   17.15    206.0   10.1489
    17.2    208.0    10.198
   17.25    199.0     9.975
    17.3    192.0     9.798
   17.35    193.0    9.8234
    17.4    204.0   10.0995
   17.45    201.0    10.025
    17.5    200.0      10.0
   17.55    177.0    9.4074
    17.6    193.0    9.8234
   17.65    199.0     9.975
    17.7    201.0    10.025
   17.75    194.0    9.8489
    17.8    184.0    9.5917
   17.85    192.0     9.798
    17.9    199.0     9.975
   17.95    190.0    9.7468
    18.0    183.0    9.5656
   18.05    189.0    7.9373
    18.1    196.0    8.0829
   18.15    196.0    8.0829
    18.2    198.0     8.124
   18.25    210.0    8.3666
    18.3    212.0    8.4063
   18.35    219.0     8.544
    18.4    198.0     8.124
   18.45    195.0    8.0623
    18.5    198.0     8.124
   18.55    191.0    7.9791
    18.6    193.0    8.0208
   18.65    197.0    8.1035
    18.7    194.0    8.0416
   18.75    187.0    7.8951
    18.8    209.0    8.3467
   18.85    187.0    7.8951
    18.9    198.0     8.124
   18.95    206.0    8.2865
    19.0    197.0    8.1035
   19.05    191.0    7.9791
    19.1    200.0     8.165
   19.15    207.0    8.3066
    19.2    205.0    8.2664
   19.25    198.0     8.124
    19.3    196.0    8.0829
   19.35    209.0    8.3467
    19.4    211.0    8.3865
   19.45    203.0     8.226
    19.5    200.0     8.165
   19.55    192.0       8.0
    19.6    208.0    8.3267
   19.65    213.0    8.4261
    19.7    221.0    8.5829
   19.75    216.0    8.4853
    19.8    226.0    8.6795
   19.85    228.0    8.7178
    19.9    228.0    8.7178
   19.95    215.0    8.4656
    20.0    224.0     8.641
   20.05    226.0    8.6795
    20.1    213.0    8.4261
   20.15    239.0    8.9256
    20.2    250.0    9.1287
   20.25    247.0    9.0738
    20.3    240.0    8.9443
   20.35    231.0     8.775
    20.4    236.0    8.8694
   20.45    223.0    8.6217
    20.5    231.0     8.775
   20.55    226.0    8.6795
    20.6    214.0    8.4459
   20.65    208.0    8.3267
    20.7    214.0    8.4459
   20.75    196.0    8.0829
    20.8    204.0    8.2462
   20.85    199.0    8.1445
    20.9    186.0     7.874
   20.95    192.0       8.0
    21.0    199.0    8.1445
   21.05    200.0     8.165
    21.1    184.0    7.8316
   21.15    184.0    7.8316
    21.2    189.0    7.9373
   21.25    182.0    7.7889
    21.3    184.0    7.8316
   21.35    185.0    7.8528
    21.4    195.0    8.0623
   21.45    190.0    7.9582
    21.5    194.0    8.0416
   21.55    185.0    7.8528
    21.6    183.0    7.8102
   21.65    193.0    8.0208
    21.7    194.0    8.0416
   21.75    193.0    8.0208
    21.8    188.0    7.9162
   21.85    191.0    7.9791
    21.9    189.0    7.9373
   21.95    188.0    7.9162
    22.0    201.0    8.1854
   22.05    195.0    8.0623
    22.1    205.0    8.2664
   22.15    200.0     8.165
    22.2    200.0     8.165
   22.25    192.0       8.0
    22.3    197.0    8.1035
   22.35    204.0    8.2462
    22.4    207.0    8.3066
   22.45    192.0       8.0
    22.5    201.0    8.1854
   22.55    190.0    7.9582
    22.6    195.0    8.0623
   22.65    194.0    8.0416
    22.7    182.0    7.7889
   22.75    189.0    7.9373
    22.8    196.0    8.0829
   22.85    196.0    8.0829
    22.9    200.0     8.165
   22.95    190.0    7.9582
    23.0    183.0    7.8102
   23.05    199.0    8.1445
    23.1    187.0    7.8951
   23.15    196.0    8.0829
    23.2    191.0    7.9791
   23.25    191.0    7.9791
    23.3    195.0    8.0623
   23.35    194.0    8.0416
    23.4    192.0       8.0
   23.45    182.0    7.7889
    23.5    188.0    7.9162
   23.55    203.0     8.226
    23.6    187.0    7.8951
   23.65    192.0       8.0
    23.7    206.0    8.2865
   23.75    201.0    8.1854
    23.8    184.0    7.8316
   23.85    192.0       8.0
    23.9    205.0    8.2664
   23.95    196.0    8.0829
    24.0    193.0    8.0208
   24.05    194.0    6.9642
    24.1    195.0    6.9821
   24.15    194.0    6.9642
    24.2    201.0    7.0887
   24.25    193.0    6.9462
    24.3    176.0    6.6332
   24.35    187.0    6.8374
    24.4    188.0    6.8557
   24.45    196.0       7.0
    24.5    192.0    6.9282
   24.55    185.0    6.8007
    24.6    195.0    6.9821
   24.65    198.0    7.0356
    24.7    205.0    7.1589
   24.75    200.0    7.0711
    24.8    208.0    7.2111
   24.85    195.0    6.9821
    24.9    187.0    6.8374
   24.95    193.0    6.9462
    25.0    197.0    7.0178
   25.05    202.0    7.1063
    25.1    193.0    6.9462
   25.15    196.0       7.0
    25.2    202.0    7.1063
   25.25    201.0    7.0887
    25.3    197.0    7.0178
   25.35    204.0    7.1414
    25.4    208.0    7.2111
   25.45    206.0    7.1764
    25.5    212.0    7.2801
   25.55    207.0    7.1937
    25.6    207.0    7.1937
   25.65    212.0    7.2801
    25.7    216.0    7.3485
   25.75    218.0    7.3824
    25.8    221.0     7.433
   25.85    218.0    7.3824
    25.9    207.0    7.1937
   25.95    203.0    7.1239
    26.0    204.0    7.1414
   26.05    202.0    7.1063
    26.1    206.0    7.1764
   26.15    202.0    7.1063
    26.2    202.0    7.1063
   26.25    181.0    6.7268
    26.3    193.0    6.9462
   26.35    205.0    7.1589
    26.4    198.0    7.0356
   26.45    196.0       7.0
    26.5    197.0    7.0178
   26.55    195.0    6.9821
    26.6    201.0    7.0887
   26.65    205.0    7.1589
    26.7    195.0    6.9821
   26.75    196.0       7.0
    26.8    196.0       7.0
   26.85    205.0    7.1589
    26.9    198.0    7.0356
   26.95    200.0    7.0711
    27.0    199.0    7.0534
   27.05    180.0    6.7082
    27.1    187.0    6.8374
   27.15    193.0    6.9462
    27.2    197.0    7.0178
   27.25    197.0    7.0178
    27.3    196.0       7.0
   27.35    194.0    6.9642
    27.4    197.0    7.0178
   27.45    204.0    7.1414
    27.5    201.0    7.0887
   27.55    187.0    6.8374
    27.6    191.0    6.9101
   27.65    205.0    7.1589
    27.7    200.0    7.0711
   27.75    198.0    7.0356
    27.8    200.0    7.0711
   27.85    204.0    7.1414
    27.9    196.0       7.0
   27.95    195.0    6.9821
    28.0    194.0    6.9642
   28.05    200.0    7.0711
    28.1    198.0    7.0356
   28.15    201.0    7.0887
    28.2    208.0    7.2111
   28.25    205.0    7.1589
    28.3    211.0    7.2629
   28.35    211.0    7.2629
    28.4    220.0    7.4162
   28.45    220.0    7.4162
    28.5    212.0    7.2801
   28.55    208.0    7.2111
    28.6    214.0    7.3144
   28.65    226.0    7.5166
    28.7    235.0    7.6649
   28.75    233.0    7.6322
    28.8    237.0    7.6974
   28.85    242.0    7.7782
    28.9    242.0    7.7782
   28.95    245.0    7.8262
    29.0    239.0    7.7298
   29.05    226.0    7.5166
    29.1    232.0    7.6158
   29.15    238.0    7.7136
    29.2    226.0    7.5166
   29.25    218.0    7.3824
    29.3    218.0    7.3824
   29.35    214.0    7.3144
    29.4    205.0    7.1589
   29.45    200.0    7.0711
    29.5    193.0    6.9462
   29.55    195.0    6.9821
    29.6    196.0       7.0
   29.65    195.0    6.9821
    29.7    207.0    7.1937
   29.75    215.0    7.3314
    29.8    207.0    7.1937
   29.85    218.0    7.3824
    29.9    218.0    7.3824
   29.95    220.0    7.4162
    30.0    220.0    7.4162
   30.05    229.0    6.7676
    30.1    236.0    6.8702
   30.15    254.0    7.1274
    30.2    264.0    7.2664
   30.25    280.0    7.4833
    30.3    289.0    7.6026
   30.35    289.0    7.6026
    30.4    303.0    7.7846
   30.45    302.0    7.7717
    30.5    297.0    7.7071
   30.55    281.0    7.4967
    30.6    278.0    7.4565
   30.65    280.0    7.4833
    30.7    265.0    7.2801
   30.75    258.0    7.1833
    30.8    243.0    6.9714
   30.85    240.0    6.9282
    30.9    232.0    6.8118
   30.95    231.0    6.7971
    31.0    233.0    6.8264
   31.05    246.0    7.0143
    31.1    248.0    7.0427
   31.15    249.0    7.0569
    31.2    256.0    7.1554
   31.25    272.0    7.3756
    31.3    289.0    7.6026
   31.35    311.0    7.8867
    31.4    340.0    8.2462
   31.45    363.0    8.5206
    31.5    393.0    8.8657
   31.55    440.0    9.3808
    31.6    474.0    9.7365
   31.65    482.0    9.8183
    31.7    492.0    9.9197
   31.75    508.0   10.0797
    31.8    494.0    9.9398
   31.85    475.0    9.7468
    31.9    439.0    9.3702
   31.95    413.0    9.0885
    32.0    368.0     8.579
   32.05    331.0    8.1363
    32.1    299.0     7.733
   32.15    286.0    7.5631
    32.2    262.0    7.2388
   32.25    241.0    6.9426
    32.3    238.0    6.8993
   32.35    252.0    7.0993
    32.4    267.0    7.3075
   32.45    276.0    7.4297
    32.5    278.0    7.4565
   32.55    300.0     7.746
    32.6    325.0    8.0623
   32.65    336.0    8.1976
    32.7    359.0    8.4735
   32.75    405.0       9.0
    32.8    458.0    9.5708
   32.85    501.0     10.01
    32.9    564.0   10.6207
   32.95    640.0   11.3137
    33.0    719.0   11.9917
   33.05    783.0    12.514
    33.1    837.0   12.9383
   33.15    851.0   13.0461
    33.2    866.0   13.1605
   33.25    828.0   12.8686
    33.3    763.0   12.3531
   33.35    697.0   11.8068
    33.4    634.0   11.2606
   33.45    541.0   10.4019
    33.5    465.0    9.6437
   33.55    391.0    8.8431
    33.6    351.0    8.3785
   33.65    301.0    7.7589
    33.7    284.0    7.5366
   33.75    260.0    7.2111
    33.8    248.0    7.0427
   33.85    257.0    7.1694
    33.9    242.0     6.957
   33.95    246.0    7.0143
    34.0    263.0    7.2526
   34.05    271.0    7.3621
    34.1    281.0    7.4967
   34.15    302.0    7.7717
    34.2    309.0    7.8613
   34.25    335.0    8.1854
    34.3    342.0    8.2704
   34.35    345.0    8.3066
    34.4    356.0     8.438
   34.45    351.0    8.3785
    34.5    341.0    8.2583
   34.55    334.0    8.1731
    34.6    321.0    8.0125
   34.65    286.0    7.5631
    34.7    268.0    7.3212
   34.75    256.0    7.1554
    34.8    238.0    6.8993
   34.85    229.0    6.7676
    34.9    218.0     6.603
   34.95    223.0    6.6783
    35.0    216.0    6.5727
   35.05    203.0    6.3718
    35.1    203.0    6.3718
   35.15    194.0     6.229
    35.2    205.0    6.4031
   35.25    196.0     6.261
    35.3    193.0    6.2129
   35.35    206.0    6.4187
    35.4    201.0    6.3403
   35.45    201.0    6.3403
    35.5    201.0    6.3403
   35.55    200.0    6.3246
    35.6    194.0     6.229
   35.65    196.0     6.261
    35.7    203.0    6.3718
   35.75    195.0     6.245
    35.8    196.0     6.261
   35.85    211.0    6.4962
    35.9    216.0    6.5727
   35.95    207.0    6.4343
    36.0    215.0    6.5574
   36.05    221.0    6.6483
    36.1    237.0    6.2849
   36.15    248.0    6.4291
    36.2    261.0    6.5955
   36.25    279.0    6.8191
    36.3    319.0    7.2915
   36.35    337.0    7.4944
    36.4    364.0    7.7889
   36.45    423.0    8.3964
    36.5    489.0    9.0277
   36.55    557.0     9.635
    36.6    630.0    10.247
   36.65    729.0   11.0227
    36.7    822.0   11.7047
   36.75    943.0   12.5366
    36.8   1059.0   13.2853
   36.85   1196.0   14.1185
    36.9   1235.0   14.3469
   36.95   1220.0   14.2595
    37.0   1209.0   14.1951
   37.05   1128.0   13.7113
    37.1   1001.0   12.9164
   37.15    864.0      12.0
    37.2    729.0   11.0227
   37.25    601.0   10.0083
    37.3    496.0    9.0921
   37.35    418.0    8.3467
    37.4    355.0     7.692
   37.45    313.0    7.2226
    37.5    263.0    6.6207
   37.55    246.0    6.4031
    37.6    226.0    6.1373
   37.65    214.0    5.9722
    37.7    222.0    6.0828
   37.75    222.0    6.0828
    37.8    211.0    5.9301
   37.85    211.0    5.9301
    37.9    202.0    5.8023
   37.95    198.0    5.7446
    38.0    192.0    5.6569
   38.05    193.0    5.6716
    38.1    196.0    5.7155
   38.15    201.0    5.7879
    38.2    203.0    5.8166
   38.25    203.0    5.8166
    38.3    201.0    5.7879
   38.35    198.0    5.7446
    38.4    196.0    5.7155
   38.45    206.0    5.8595
    38.5    210.0    5.9161
   38.55    197.0      5.73
    38.6    204.0     5.831
   38.65    200.0    5.7735
    38.7    205.0    5.8452
   38.75    196.0    5.7155
    38.8    195.0    5.7009
   38.85    205.0    5.8452
    38.9    204.0     5.831
   38.95    200.0    5.7735
    39.0    203.0    5.8166
   39.05    208.0    5.8878
    39.1    207.0    5.8737
   39.15    202.0    5.8023
    39.2    203.0    5.8166
   39.25    198.0    5.7446
    39.3    204.0     5.831
   39.35    210.0    5.9161
    39.4    216.0       6.0
   39.45    210.0    5.9161
    39.5    229.0    6.1779
   39.55    239.0    6.3114
    39.6    247.0    6.4161
   39.65    278.0    6.8069
    39.7    302.0    7.0946
   39.75    324.0    7.3485
    39.8    371.0    7.8634
   39.85    420.0    8.3666
    39.9    465.0    8.8034
   39.95    538.0    9.4692
    40.0    630.0    10.247
   40.05    739.0    11.098
    40.1    851.0   11.9094
   40.15    976.0   12.7541
    40.2   1076.0   13.3915
   40.25   1161.0   13.9104
    40.3   1222.0   14.2712
   40.35   1227.0   14.3003
    40.4   1187.0   14.0653
   40.45   1096.0   13.5154
    40.5    964.0   12.6754
   40.55    833.0   11.7828
    40.6    708.0   10.8628
   40.65    587.0    9.8911
    40.7    512.0    9.2376
   40.75    436.0    8.5245
    40.8    391.0    8.0726
   40.85    384.0       8.0
    40.9    370.0    7.8528
   40.95    391.0    8.0726
    41.0    419.0    8.3566
   41.05    448.0     8.641
    41.1    490.0     9.037
   41.15    567.0    9.7211
    41.2    626.0   10.2144
   41.25    687.0   10.7005
    41.3    735.0    11.068
   41.35    780.0   11.4018
    41.4    782.0   11.4164
   41.45    745.0    11.143
    41.5    721.0   10.9621
   41.55    662.0    10.504
    41.6    595.0    9.9582
   41.65    527.0    9.3719
    41.7    446.0    8.6217
   41.75    393.0    8.0932
    41.8    335.0    7.4722
   41.85    301.0    7.0828
    41.9    276.0    6.7823
   41.95    251.0    5.9881
    42.0    242.0    5.8797
   42.05    229.0    5.7196
    42.1    209.0    5.4642
   42.15    215.0     5.542
    42.2    218.0    5.5806
   42.25    214.0    5.5291
    42.3    209.0    5.4642
   42.35    208.0    5.4511
    42.4    212.0    5.5032
   42.45    210.0    5.4772
    42.5    209.0    5.4642
   42.55    210.0    5.4772
    42.6    205.0    5.4116
   42.65    209.0    5.4642
    42.7    211.0    5.4903
   42.75    211.0    5.4903
    42.8    216.0    5.5549
   42.85    205.0    5.4116
    42.9    204.0    5.3984
   42.95    202.0    5.3719
    43.0    201.0    5.3586
   43.05    200.0    5.3452
    43.1    207.0     5.438
   43.15    205.0    5.4116
    43.2    202.0    5.3719
   43.25    209.0    5.4642
    43.3    202.0    5.3719
   43.35    203.0    5.3852
    43.4    206.0    5.4248
   43.45    206.0    5.4248
    43.5    200.0    5.3452
   43.55    194.0    5.2644
    43.6    199.0    5.3318
   43.65    204.0    5.3984
    43.7    205.0    5.4116
   43.75    210.0    5.4772
    43.8    207.0     5.438
   43.85    205.0    5.4116
    43.9    210.0    5.4772
   43.95    204.0    5.3984
    44.0    203.0    5.3852
   44.05    202.0    5.3719
    44.1    205.0    5.4116
   44.15    201.0    5.3586
    44.2    201.0    5.3586
   44.25    207.0     5.438
    44.3    197.0     5.305
   44.35    198.0    5.3184
    44.4    203.0    5.3852
   44.45    209.0    5.4642
    44.5    209.0    5.4642
   44.55    208.0    5.4511
    44.6    204.0    5.3984
   44.65    209.0    5.4642
    44.7    199.0    5.3318
   44.75    204.0    5.3984
    44.8    206.0    5.4248
   44.85    201.0    5.3586
    44.9    205.0    5.4116
   44.95    202.0    5.3719
    45.0    204.0    5.3984
   45.05    198.0    5.3184
    45.1    198.0    5.3184
   45.15    213.0    5.5162
    45.2    210.0    5.4772
   45.25    212.0    5.5032
    45.3    214.0    5.5291
   45.35    215.0     5.542
    45.4    217.0    5.5678
   45.45    210.0    5.4772
    45.5    214.0    5.5291
   45.55    215.0     5.542
    45.6    215.0     5.542
   45.65    215.0     5.542
    45.7    217.0    5.5678
   45.75    222.0    5.6315
    45.8    231.0    5.7446
   45.85    247.0    5.9402
    45.9    252.0       6.0
   45.95    273.0     6.245
    46.0    304.0      6.59
   46.05    332.0    6.8868
    46.1    366.0    7.2309
   46.15    408.0    7.6345
    46.2    463.0    8.1328
   46.25    532.0    8.7178
    46.3    619.0    9.4036
   46.35    734.0     10.24
    46.4    828.0   10.8759
   46.45    944.0   11.6128
    46.5   1003.0   11.9702
   46.55   1055.0   12.2766
    46.6   1070.0   12.3635
   46.65   1018.0   12.0594
    46.7    944.0   11.6128
   46.75    833.0   10.9087
    46.8    725.0    10.177
   46.85    633.0    9.5094
    46.9    507.0    8.5105
   46.95    445.0    7.9732
    47.0    379.0    7.3582
   47.05    347.0    7.0407
    47.1    316.0    6.7188
   47.15    282.0    6.3471
    47.2    267.0     6.176
   47.25    269.0    6.1991
    47.3    281.0    6.3358
   47.35    288.0    6.4143
    47.4    300.0    6.5465
   47.45    327.0    6.8348
    47.5    346.0    7.0305
   47.55    380.0    7.3679
    47.6    400.0    7.5593
   47.65    430.0    7.8376
    47.7    453.0    8.0445
   47.75    459.0    8.0976
    47.8    451.0    8.0267
   47.85    427.0    7.8102
    47.9    402.0    7.5782
   47.95    375.0    7.3193
    48.0    344.0    7.0102
   48.05    309.0     6.644
    48.1    277.0    6.2906
   48.15    265.0    5.7554
    48.2    246.0    5.5453
   48.25    246.0    5.5453
    48.3    230.0    5.3619
   48.35    223.0    5.2797
    48.4    227.0    5.3268
   48.45    225.0    5.3033
    48.5    217.0    5.2082
   48.55    217.0    5.2082
    48.6    223.0    5.2797
   48.65    223.0    5.2797
    48.7    220.0     5.244
   48.75    223.0    5.2797
    48.8    226.0    5.3151
   48.85    248.0    5.5678
    48.9    258.0    5.6789
   48.95    274.0    5.8523
    49.0    297.0     6.093
   49.05    324.0     6.364
    49.1    355.0    6.6615
   49.15    393.0    7.0089
    49.2    458.0    7.5664
   49.25    528.0     8.124
    49.3    589.0    8.5805
   49.35    688.0    9.2736
    49.4    781.0    9.8805
   49.45    840.0    10.247
    49.5    876.0   10.4642
   49.55    874.0   10.4523
    49.6    832.0    10.198
   49.65    765.0    9.7788
    49.7    682.0    9.2331
   49.75    613.0    8.7536
    49.8    524.0    8.0932
   49.85    455.0    7.5416
    49.9    408.0    7.1414
   49.95    384.0    6.9282
    50.0    366.0    6.7639
   50.05    375.0    6.8465
    50.1    392.0       7.0
   50.15    426.0    7.2973
    50.2    470.0    7.6649
   50.25    519.0    8.0545
    50.3    588.0    8.5732
   50.35    639.0    8.9373
    50.4    681.0    9.2263
   50.45    704.0    9.3808
    50.5    693.0    9.3073
   50.55    650.0    9.0139
    50.6    600.0    8.6603
   50.65    540.0    8.2158
    50.7    478.0    7.7298
   50.75    412.0    7.1764
    50.8    376.0    6.8557
   50.85    345.0     6.567
    50.9    330.0    6.4226
   50.95    337.0    6.4904
    51.0    350.0    6.6144
   51.05    383.0    6.9192
    51.1    426.0    7.2973
   51.15    493.0    7.8502
    51.2    571.0    8.4484
   51.25    676.0    9.1924
    51.3    803.0   10.0187
   51.35    920.0   10.7238
    51.4   1071.0   11.5704
   51.45   1183.0   12.1604
    51.5   1247.0    12.485
   51.55   1255.0    12.525
    51.6   1251.0    12.505
   51.65   1183.0   12.1604
    51.7   1068.0   11.5542
   51.75    945.0   10.8685
    51.8    861.0   10.3742
   51.85    811.0   10.0685
    51.9    813.0   10.0809
   51.95    872.0   10.4403
    52.0    969.0   11.0057
   52.05   1120.0   11.8322
    52.1   1309.0   12.7916
   52.15   1527.0   13.8158
    52.2   1706.0   14.6031
   52.25   1856.0   15.2315
    52.3   1888.0   15.3623
   52.35   1837.0   15.1534
    52.4   1713.0    14.633
   52.45   1500.0   13.6931
    52.5   1289.0   12.6935
   52.55   1103.0    11.742
    52.6    904.0   10.6301
   52.65    749.0     9.676
    52.7    627.0     8.853
   52.75    568.0    8.4261
    52.8    551.0    8.2991
   52.85    560.0    8.3666
    52.9    586.0    8.5586
   52.95    634.0    8.9022
    53.0    691.0    9.2938
   53.05    751.0    9.6889
    53.1    799.0    9.9937
   53.15    792.0    9.9499
    53.2    820.0   10.1242
   53.25    774.0    9.8362
    53.3    736.0    9.5917
   53.35    680.0    9.2195
    53.4    627.0     8.853
   53.45    562.0    8.3815
    53.5    514.0    8.0156
   53.55    459.0    7.5746
    53.6    424.0    7.2801
   53.65    362.0    6.7268
    53.7    333.0    6.4517
   53.75    318.0    6.3048
    53.8    300.0    6.1237
   53.85    287.0    5.9896
    53.9    265.0    5.7554
   53.95    266.0    5.7663
    54.0    262.0    5.7228
   54.05    263.0    5.4058
    54.1    255.0    5.3229
   54.15    270.0    5.4772
    54.2    278.0    5.5578
   54.25    289.0    5.6667
    54.3    317.0    5.9348
   54.35    343.0    6.1734
    54.4    400.0    6.6667
   54.45    468.0    7.2111
    54.5    561.0    7.8951
   54.55    695.0    8.7876
    54.6    873.0    9.8489
   54.65   1100.0   11.0554
    54.7   1372.0   12.3468
   54.75   1660.0    13.581
    54.8   1954.0   14.7347
   54.85   2224.0   15.7198
    54.9   2400.0   16.3299
   54.95   2459.0   16.5294
    55.0   2435.0   16.4486
   55.05   2245.0   15.7938
    55.1   1986.0   14.8549
   55.15   1671.0    13.626
    55.2   1358.0   12.2837
   55.25   1086.0   10.9848
    55.3    868.0    9.8206
   55.35    682.0     8.705
    55.4    578.0    8.0139
   55.45    521.0    7.6085
    55.5    512.0    7.5425
   55.55    537.0    7.7244
    55.6    600.0     8.165
   55.65    704.0    8.8443
    55.7    855.0    9.7468
   55.75   1032.0   10.7083
    55.8   1232.0      11.7
   55.85   1466.0   12.7628
    55.9   1693.0   13.7154
   55.95   1866.0   14.3991
    56.0   1966.0   14.7799
   56.05   2024.0   14.9963
    56.1   2016.0   14.9666
   56.15   1846.0   14.3217
    56.2   1667.0   13.6096
   56.25   1429.0   12.6007
    56.3   1179.0   11.4455
   56.35    950.0    10.274
    56.4    763.0    9.2075
   56.45    599.0    8.1582
    56.5    484.0    7.3333
   56.55    404.0    6.6999
    56.6    351.0     6.245
   56.65    304.0    5.8119
    56.7    284.0    5.6174
   56.75    273.0    5.5076
    56.8    259.0    5.3645
   56.85    251.0     5.281
    56.9    251.0     5.281
   56.95    252.0    5.2915
    57.0    245.0    5.2175
   57.05    259.0    5.3645
    57.1    250.0    5.2705
   57.15    253.0     5.302
    57.2    256.0    5.3333
   57.25    264.0     5.416
    57.3    285.0    5.6273
   57.35    301.0    5.7831
    57.4    346.0    6.2004
   57.45    390.0    6.5828
    57.5    458.0    7.1336
   57.55    528.0    7.6594
    57.6    624.0    8.3267
   57.65    733.0    9.0247
    57.7    829.0    9.5975
   57.75    916.0   10.0885
    57.8    988.0   10.4775
   57.85    994.0   10.5093
    57.9    929.0   10.1598
   57.95    843.0    9.6782
    58.0    742.0    9.0799
   58.05    638.0    8.4196
    58.1    527.0    7.6522
   58.15    434.0    6.9442
    58.2    377.0    6.4722
   58.25    320.0    5.9628
    58.3    282.0    5.5976
   58.35    273.0    5.5076
    58.4    256.0    5.3333
   58.45    243.0    5.1962
    58.5    240.0     5.164
   58.55    240.0     5.164
    58.6    230.0    5.0553
   58.65    220.0    4.9441
    58.7    230.0    5.0553
   58.75    227.0    5.0222
    58.8    224.0    4.9889
   58.85    219.0    4.9329
    58.9    227.0    5.0222
   58.95    227.0    5.0222
    59.0    224.0    4.9889
   59.05    222.0    4.9666
    59.1    223.0    4.9777
   59.15    217.0    4.9103
    59.2    213.0    4.8648
   59.25    216.0     4.899
    59.3    219.0    4.9329
   59.35    219.0    4.9329
    59.4    218.0    4.9216
   59.45    220.0    4.9441
    59.5    220.0    4.9441
   59.55    220.0    4.9441
    59.6    223.0    4.9777
   59.65    233.0    5.0881
    59.7    237.0    5.1316
   59.75    249.0    5.2599
    59.8    258.0    5.3541
   59.85    261.0    5.3852
    59.9    283.0    5.6075
   59.95    304.0    5.8119
    60.0    324.0    5.6921
   60.05    347.0    5.8907
    60.1    353.0    5.9414
   60.15    359.0    5.9917
    60.2    363.0    6.0249
   60.25    352.0     5.933
    60.3    341.0    5.8395
   60.35    330.0    5.7446
    60.4    308.0    5.5498
   60.45    291.0    5.3944
    60.5    271.0    5.2058
   60.55    254.0    5.0398
    60.6    245.0    4.9497
   60.65    245.0    4.9497
    60.7    239.0    4.8888
   60.75    228.0    4.7749
    60.8    217.0    4.6583
   60.85    217.0    4.6583
    60.9    218.0     4.669
   60.95    223.0    4.7223
    61.0    207.0    4.5497
   61.05    218.0     4.669
    61.1    222.0    4.7117
   61.15    215.0    4.6368
    61.2    210.0    4.5826
   61.25    216.0    4.6476
    61.3    213.0    4.6152
   61.35    212.0    4.6043
    61.4    215.0    4.6368
   61.45    212.0    4.6043
    61.5    214.0     4.626
   61.55    211.0    4.5935
    61.6    214.0     4.626
   61.65    217.0    4.6583
    61.7    205.0    4.5277
   61.75    207.0    4.5497
    61.8    213.0    4.6152
   61.85    208.0    4.5607
    61.9    211.0    4.5935
   61.95    205.0    4.5277
    62.0    214.0     4.626
   62.05    213.0    4.6152
    62.1    212.0    4.6043
   62.15    212.0    4.6043
    62.2    213.0    4.6152
   62.25    207.0    4.5497
    62.3    203.0    4.5056
   62.35    211.0    4.5935
    62.4    211.0    4.5935
   62.45    214.0     4.626
    62.5    214.0     4.626
   62.55    207.0    4.5497
    62.6    203.0    4.5056
   62.65    212.0    4.6043
    62.7    212.0    4.6043
   62.75    214.0     4.626
    62.8    213.0    4.6152
   62.85    202.0    4.4944
    62.9    210.0    4.5826
   62.95    211.0    4.5935
    63.0    211.0    4.5935
   63.05    214.0     4.626
    63.1    221.0    4.7011
   63.15    217.0    4.6583
    63.2    212.0    4.6043
   63.25    214.0     4.626
    63.3    219.0    4.6797
   63.35    223.0    4.7223
    63.4    225.0    4.7434
   63.45    227.0    4.7645
    63.5    235.0    4.8477
   63.55    240.0     4.899
    63.6    243.0    4.9295
   63.65    252.0      5.02
    63.7    249.0      4.99
   63.75    249.0      4.99
    63.8    255.0    5.0498
   63.85    262.0    5.1186
    63.9    282.0    5.3104
   63.95    308.0    5.5498
    64.0    351.0    5.9245
   64.05    398.0    6.3087
    64.1    470.0    6.8557
   64.15    525.0    7.2457
    64.2    596.0    7.7201
   64.25    646.0    8.0374
    64.3    681.0    8.2523
   64.35    665.0    8.1548
    64.4    615.0    7.8422
   64.45    563.0    7.5033
    64.5    484.0     6.957
   64.55    421.0    6.4885
    64.6    364.0    6.0332
   64.65    317.0    5.6303
    64.7    289.0    5.3759
   64.75    261.0    5.1088
    64.8    245.0    4.9497
   64.85    233.0     4.827
    64.9    228.0    4.7749
   64.95    219.0    4.6797
    65.0    219.0    4.6797
   65.05    217.0    4.6583
    65.1    216.0    4.6476
   65.15    221.0    4.7011
    65.2    215.0    4.6368
   65.25    215.0    4.6368
    65.3    210.0    4.5826
   65.35    212.0    4.6043
    65.4    212.0    4.6043
   65.45    204.0    4.5166
    65.5    209.0    4.5717
   65.55    206.0    4.5387
    65.6    216.0    4.6476
   65.65    207.0    4.5497
    65.7    214.0     4.626
   65.75    207.0    4.5497
    65.8    209.0    4.5717
   65.85    218.0     4.669
    65.9    215.0    4.6368
   65.95    222.0    4.7117
    66.0    226.0    4.7539
   66.05    230.0    4.7958
    66.1    239.0    4.8888
   66.15    249.0      4.99
    66.2    263.0    5.1284
   66.25    275.0     5.244
    66.3    292.0    5.4037
   66.35    317.0    5.6303
    66.4    323.0    5.6833
   66.45    341.0    5.8395
    66.5    350.0    5.9161
   66.55    330.0    5.7446
    66.6    320.0    5.6569
   66.65    307.0    5.5408
    66.7    284.0    5.3292
   66.75    275.0     5.244
    66.8    265.0    5.1478
   66.85    269.0    5.1865
    66.9    275.0     5.244
   66.95    292.0    5.4037
    67.0    311.0    5.5767
   67.05    338.0    5.8138
    67.1    387.0    6.2209
   67.15    413.0    6.4265
    67.2    463.0    6.8044
   67.25    510.0    7.1414
    67.3    534.0    7.3075
   67.35    559.0    7.4766
    67.4    539.0    7.3417
   67.45    533.0    7.3007
    67.5    500.0    7.0711
   67.55    471.0    6.8629
    67.6    455.0    6.7454
   67.65    410.0    6.4031
    67.7    373.0    6.1074
   67.75    342.0    5.8481
    67.8    307.0    5.5408
   67.85    288.0    5.3666
    67.9    286.0    5.3479
   67.95    281.0    5.3009
    68.0    292.0    5.4037
   68.05    291.0    5.3944
    68.1    312.0    5.5857
   68.15    326.0    5.7096
    68.2    336.0    5.7966
   68.25    346.0    5.8822
    68.3    341.0    5.8395
   68.35    327.0    5.7184
    68.4    305.0    5.5227
   68.45    277.0    5.2631
    68.5    267.0    5.1672
   68.55    249.0      4.99
    68.6    229.0    4.7854
   68.65    221.0    4.7011
    68.7    220.0    4.6904
   68.75    217.0    4.6583
    68.8    211.0    4.5935
   68.85    204.0    4.5166
    68.9    203.0    4.5056
   68.95    220.0    4.6904
    69.0    217.0    4.6583
   69.05    217.0    4.6583
    69.1    214.0     4.626
   69.15    205.0    4.5277
    69.2    205.0    4.5277
   69.25    211.0    4.5935
    69.3    206.0    4.5387
   69.35    208.0    4.5607
    69.4    201.0    4.4833
   69.45    208.0    4.5607
    69.5    214.0     4.626
   69.55    212.0    4.6043
    69.6    206.0    4.5387
   69.65    216.0    4.6476
    69.7    219.0    4.6797
   69.75    215.0    4.6368
    69.8    217.0    4.6583
   69.85    211.0    4.5935
    69.9    214.0     4.626
   69.95    215.0    4.6368
    70.0    224.0    4.7329
   70.05    217.0    4.6583
    70.1    215.0    4.6368
   70.15    218.0     4.669
    70.2    218.0     4.669
   70.25    228.0    4.7749
    70.3    227.0    4.7645
   70.35    228.0    4.7749
    70.4    225.0    4.7434
   70.45    219.0    4.6797
    70.5    216.0    4.6476
   70.55    219.0    4.6797
    70.6    218.0     4.669
   70.65    214.0     4.626
    70.7    212.0    4.6043
   70.75    221.0    4.7011
    70.8    214.0     4.626
   70.85    208.0    4.5607
    70.9    204.0    4.5166
   70.95    209.0    4.5717
    71.0    209.0    4.5717
   71.05    208.0    4.5607
    71.1    212.0    4.6043
   71.15    213.0    4.6152
    71.2    218.0     4.669
   71.25    212.0    4.6043
    71.3    205.0    4.5277
   71.35    207.0    4.5497
    71.4    204.0    4.5166
   71.45    206.0    4.5387
    71.5    211.0    4.5935
   71.55    216.0    4.6476
    71.6    214.0     4.626
   71.65    210.0    4.5826
    71.7    219.0    4.6797
   71.75    222.0    4.7117
    71.8    224.0    4.7329
   71.85    231.0    4.8062
    71.9    227.0    4.7645
   71.95    237.0    4.8683
    72.0    235.0    4.8477
   72.05    238.0    4.8785
    72.1    245.0    4.9497
   72.15    242.0    4.9193
    72.2    248.0      4.98
   72.25    246.0    4.9598
    72.3    243.0    4.9295
   72.35    253.0    5.0299
    72.4    259.0    5.0892
   72.45    278.0    5.2726
    72.5    281.0    5.3009
   72.55    297.0    5.4498
    72.6    310.0    5.5678
   72.65    324.0    5.6921
    72.7    322.0    5.6745
   72.75    311.0    5.5767
    72.8    295.0    5.4314
   72.85    281.0    5.3009
    72.9    259.0    5.0892
   72.95    250.0       5.0
    73.0    239.0    4.8888
   73.05    233.0     4.827
    73.1    227.0    4.7645
   73.15    226.0    4.7539
    73.2    223.0    4.7223
   73.25    211.0    4.5935
    73.3    209.0    4.5717
   73.35    217.0    4.6583
    73.4    214.0     4.626
   73.45    213.0    4.6152
    73.5    217.0    4.6583
   73.55    220.0    4.6904
    73.6    210.0    4.5826
   73.65    209.0    4.5717
    73.7    215.0    4.6368
   73.75    218.0     4.669
    73.8    215.0    4.6368
   73.85    217.0    4.6583
    73.9    221.0    4.7011
   73.95    217.0    4.6583
    74.0    219.0    4.6797
   74.05    220.0    4.6904
    74.1    228.0    4.7749
   74.15    229.0    4.7854
    74.2    230.0    4.7958
   74.25    234.0    4.8374
    74.3    251.0      5.01
   74.35    261.0    5.1088
    74.4    288.0    5.3666
   74.45    313.0    5.5946
    74.5    362.0    6.0166
   74.55    424.0    6.5115
    74.6    524.0    7.2388
   74.65    646.0    8.0374
    74.7    781.0    8.8374
   74.75    920.0    9.5917
    74.8   1024.0   10.1193
   74.85   1120.0    10.583
    74.9   1187.0    10.895
   74.95   1187.0    10.895
    75.0   1166.0   10.7981
   75.05   1114.0   10.5546
    75.1   1044.0   10.2176
   75.15    991.0    9.9549
    75.2    927.0    9.6281
   75.25    823.0    9.0719
    75.3    717.0    8.4676
   75.35    619.0    7.8677
    75.4    520.0    7.2111
   75.45    421.0    6.4885
    75.5    353.0    5.9414
   75.55    308.0    5.5498
    75.6    273.0    5.2249
   75.65    256.0    5.0596
    75.7    245.0    4.9497
   75.75    234.0    4.8374
    75.8    230.0    4.7958
   75.85    224.0    4.7329
    75.9    232.0    4.8166
   75.95    226.0    4.7539
    76.0    222.0    4.7117
   76.05    222.0    4.7117
    76.1    227.0    4.7645
   76.15    225.0    4.7434
    76.2    226.0    4.7539
   76.25    227.0    4.7645
    76.3    229.0    4.7854
   76.35    235.0    4.8477
    76.4    233.0     4.827
   76.45    243.0    4.9295
    76.5    238.0    4.8785
   76.55    237.0    4.8683
    76.6    236.0     4.858
   76.65    232.0    4.8166
    76.7    231.0    4.8062
   76.75    227.0    4.7645
    76.8    225.0    4.7434
   76.85    220.0    4.6904
    76.9    218.0     4.669
   76.95    215.0    4.6368
    77.0    219.0    4.6797
   77.05    224.0    4.7329
    77.1    225.0    4.7434
   77.15    222.0    4.7117
    77.2    231.0    4.8062
   77.25    243.0    4.9295
    77.3    250.0       5.0
   77.35    269.0    5.1865
    77.4    286.0    5.3479
   77.45    310.0    5.5678
    77.5    325.0    5.7009
   77.55    332.0    5.7619
    77.6    337.0    5.8052
   77.65    329.0    5.7359
    77.7    303.0    5.5045
   77.75    278.0    5.2726
    77.8    268.0    5.1769
   77.85    252.0      5.02
    77.9    236.0     4.858
   77.95    228.0    4.7749
    78.0    219.0    4.6797
   78.05    225.0    4.7434
    78.1    222.0    4.7117
   78.15    214.0     4.626
    78.2    228.0    4.7749
   78.25    221.0    4.7011
    78.3    217.0    4.6583
   78.35    221.0    4.7011
    78.4    222.0    4.7117
   78.45    226.0    4.7539
    78.5    237.0    4.8683
   78.55    246.0    4.9598
    78.6    255.0    5.0498
   78.65    269.0    5.1865
    78.7    284.0    5.3292
   78.75    302.0    5.4955
    78.8    313.0    5.5946
   78.85    327.0    5.7184
    78.9    321.0    5.6657
   78.95    333.0    5.7706
    79.0    331.0    5.7533
   79.05    332.0    5.7619
    79.1    358.0    5.9833
   79.15    402.0    6.3403
    79.2    460.0    6.7823
   79.25    557.0    7.4632
    79.3    660.0     8.124
   79.35    769.0    8.7693
    79.4    859.0    9.2682
   79.45    934.0    9.6644
    79.5    955.0    9.7724
   79.55    921.0    9.5969
    79.6    824.0    9.0774
   79.65    694.0    8.3307
    79.7    578.0    7.6026
   79.75    474.0    6.8848
    79.8    402.0    6.3403
   79.85    344.0    5.8652
    79.9    306.0    5.5317
   79.95    300.0    5.4772
    80.0    292.0    5.4037
   80.05    292.0    5.4037
    80.1    302.0    5.4955
   80.15    304.0    5.5136
    80.2    306.0    5.5317
   80.25    305.0    5.5227
    80.3    303.0    5.5045
   80.35    299.0    5.4681
    80.4    278.0    5.2726
   80.45    259.0    5.0892
    80.5    257.0    5.0695
   80.55    245.0    4.9497
    80.6    237.0    4.8683
   80.65    240.0     4.899
    80.7    233.0     4.827
   80.75    232.0    4.8166
    80.8    235.0    4.8477
   80.85    241.0    4.9092
    80.9    257.0    5.0695
   80.95    274.0    5.2345
    81.0    292.0    5.4037
   81.05    309.0    5.5588
    81.1    333.0    5.7706
   81.15    360.0       6.0
    81.2    381.0    6.1725
   81.25    387.0    6.2209
    81.3    387.0    6.2209
   81.35    386.0    6.2129
    81.4    382.0    6.1806
   81.45    368.0    6.0663
    81.5    363.0    6.0249
   81.55    352.0     5.933
    81.6    337.0    5.8052
   81.65    321.0    5.6657
    81.7    297.0    5.4498
   81.75    281.0    5.3009
    81.8    265.0    5.1478
   81.85    255.0    5.0498
    81.9    251.0      5.01
   81.95    237.0    4.8683
    82.0    238.0    4.8785
   82.05    237.0    4.8683
    82.1    228.0    4.7749
   82.15    240.0     4.899
    82.2    234.0    4.8374
   82.25    226.0    4.7539
    82.3    229.0    4.7854
   82.35    228.0    4.7749
    82.4    233.0     4.827
   82.45    243.0    4.9295
    82.5    241.0    4.9092
   82.55    257.0    5.0695
    82.6    279.0     5.282
   82.65    305.0    5.5227
    82.7    345.0    5.8737
   82.75    410.0    6.4031
    82.8    455.0    6.7454
   82.85    545.0    7.3824
    82.9    622.0    7.8867
   82.95    673.0    8.2037
    83.0    725.0    8.5147
   83.05    717.0    8.4676
    83.1    661.0    8.1302
   83.15    592.0    7.6942
    83.2    518.0    7.1972
   83.25    443.0    6.6558
    83.3    371.0     6.091
   83.35    336.0    5.7966
    83.4    290.0    5.3852
   83.45    265.0    5.1478
    83.5    252.0      5.02
   83.55    250.0       5.0
    83.6    244.0    4.9396
   83.65    242.0    4.9193
    83.7    241.0    4.9092
   83.75    243.0    4.9295
    83.8    248.0      4.98
   83.85    253.0    5.0299
    83.9    252.0      5.02
   83.95    264.0    5.1381
    84.0    266.0    5.1575
   84.05    282.0    5.3104
    84.1    291.0    5.3944
   84.15    313.0    5.5946
    84.2    346.0    5.8822
   84.25    374.0    6.1156
    84.3    415.0     6.442
   84.35    430.0    6.5574
    84.4    433.0    6.5803
   84.45    430.0    6.5574
    84.5    406.0    6.3718
   84.55    384.0    6.1968
    84.6    349.0    5.9076
   84.65    318.0    5.6391
    84.7    307.0    5.5408
   84.75    298.0    5.4589
    84.8    296.0    5.4406
   84.85    304.0    5.5136
    84.9    313.0    5.5946
   84.95    328.0    5.7271
    85.0    346.0    5.8822
   85.05    341.0    5.8395
    85.1    335.0    5.7879
   85.15    324.0    5.6921
    85.2    336.0    5.7966
   85.25    341.0    5.8395
    85.3    341.0    5.8395
   85.35    370.0    6.0828
    85.4    414.0    6.4343
   85.45    442.0    6.6483
    85.5    490.0       7.0
   85.55    520.0    7.2111
    85.6    532.0    7.2938
   85.65    548.0    7.4027
    85.7    561.0      7.49
   85.75    567.0    7.5299
    85.8    585.0    7.6485
   85.85    584.0     7.642
    85.9    558.0    7.4699
   85.95    527.0    7.2595
    86.0    481.0    6.9354
   86.05    424.0    6.5115
    86.1    370.0    6.0828
   86.15    333.0    5.7706
    86.2    312.0    5.5857
   86.25    301.0    5.4863
    86.3    307.0    5.5408
   86.35    314.0    5.6036
    86.4    340.0     5.831
   86.45    379.0    6.1563
    86.5    427.0    6.5345
   86.55    467.0    6.8337
    86.6    535.0    7.3144
   86.65    584.0     7.642
    86.7    602.0    7.7589
   86.75    580.0    7.6158
    86.8    532.0    7.2938
   86.85    481.0    6.9354
    86.9    426.0    6.5269
   86.95    379.0    6.1563
    87.0    329.0    5.7359
   87.05    303.0    5.5045
    87.1    288.0    5.3666
   87.15    271.0    5.2058
    87.2    269.0    5.1865
   87.25    267.0    5.1672
    87.3    263.0    5.1284
   87.35    267.0    5.1672
    87.4    260.0     5.099
   87.45    260.0     5.099
    87.5    263.0    5.1284
   87.55    263.0    5.1284
    87.6    270.0    5.1962
   87.65    278.0    5.2726
    87.7    293.0    5.4129
   87.75    318.0    5.6391
    87.8    364.0    6.0332
   87.85    424.0    6.5115
    87.9    512.0    7.1554
   87.95    643.0    8.0187
    88.0    817.0    9.0388
   88.05    982.0    9.9096
    88.1   1163.0   10.7842
   88.15   1289.0   11.3534
    88.2   1373.0   11.7175
   88.25   1393.0   11.8025
    88.3   1348.0   11.6103
   88.35   1244.0   11.1535
    88.4   1157.0   10.7564
   88.45   1077.0   10.3779
    88.5   1020.0   10.0995
   88.55    965.0    9.8234
    88.6    907.0    9.5237
   88.65    858.0    9.2628
    88.7    771.0    8.7807
   88.75    647.0    8.0436
    88.8    555.0    7.4498
   88.85    468.0    6.8411
    88.9    405.0     6.364
   88.95    348.0    5.8992
    89.0    316.0    5.6214
   89.05    291.0    5.3944
    89.1    277.0    5.2631
   89.15    278.0    5.2726
    89.2    270.0    5.1962
   89.25    262.0    5.1186
    89.3    268.0    5.1769
   89.35    270.0    5.1962
    89.4    279.0     5.282
   89.45    287.0    5.3572
    89.5    300.0    5.4772
   89.55    319.0     5.648
    89.6    347.0    5.8907
   89.65    378.0    6.1482
    89.7    420.0    6.4807
   89.75    469.0    6.8484
    89.8    536.0    7.3212
   89.85    645.0    8.0312
    89.9    773.0     8.792
   89.95    925.0    9.6177
    90.0   1115.0   10.5594
   90.05   1254.0   11.1982
    90.1   1367.0   11.6919
   90.15   1400.0   11.8322
    90.2   1327.0   11.5195
   90.25   1188.0   10.8995
    90.3   1038.0   10.1882
   90.35    879.0    9.3755
    90.4    738.0    8.5907
   90.45    644.0     8.025
    90.5    594.0    7.7071
   90.55    601.0    7.7524
    90.6    643.0    8.0187
   90.65    697.0    8.3487
    90.7    786.0    8.8657
   90.75    842.0    9.1761
    90.8    847.0    9.2033
   90.85    791.0    8.8938
    90.9    702.0    8.3785
   90.95    592.0    7.6942
    91.0    508.0    7.1274
   91.05    418.0    6.4653
    91.1    362.0    6.0166
   91.15    328.0    5.7271
    91.2    299.0    5.4681
   91.25    279.0     5.282
    91.3    270.0    5.1962
   91.35    257.0    5.0695
    91.4    253.0    5.0299
   91.45    258.0    5.0794
    91.5    257.0    5.0695
   91.55    249.0      4.99
    91.6    245.0    4.9497
   91.65    257.0    5.0695
    91.7    260.0     5.099
   91.75    284.0    5.3292
    91.8    296.0    5.4406
   91.85    322.0    5.6745
    91.9    343.0    5.8566
   91.95    382.0    6.1806
    92.0    405.0     6.364
   92.05    411.0    6.4109
    92.1    416.0    6.4498
   92.15    406.0    6.3718
    92.2    372.0    6.0992
   92.25    353.0    5.9414
    92.3    330.0    5.7446
   92.35    317.0    5.6303
    92.4    313.0    5.5946
   92.45    312.0    5.5857
    92.5    309.0    5.5588
   92.55    303.0    5.5045
    92.6    288.0    5.3666
   92.65    276.0    5.2536
    92.7    264.0    5.1381
   92.75    246.0    4.9598
    92.8    249.0      4.99
   92.85    241.0    4.9092
    92.9    251.0      5.01
   92.95    243.0    4.9295
    93.0    246.0    4.9598
   93.05    246.0    4.9598
    93.1    249.0      4.99
   93.15    244.0    4.9396
    93.2    252.0      5.02
   93.25    252.0      5.02
    93.3    258.0    5.0794
   93.35    265.0    5.1478
    93.4    263.0    5.1284
   93.45    284.0    5.3292
    93.5    299.0    5.4681
   93.55    320.0    5.6569
    93.6    344.0    5.8652
   93.65    363.0    6.0249
    93.7    372.0    6.0992
   93.75    358.0    5.9833
    93.8    351.0    5.9245
   93.85    354.0    5.9498
    93.9    330.0    5.7446
   93.95    322.0    5.6745
    94.0    334.0    5.7793
   94.05    339.0    5.8224
    94.1    345.0    5.8737
   94.15    357.0    5.9749
    94.2    360.0       6.0
   94.25    358.0    5.9833
    94.3    372.0    6.0992
   94.35    425.0    6.5192
    94.4    511.0    7.1484
   94.45    626.0     7.912
    94.5    770.0     8.775
   94.55    946.0    9.7263
    94.6   1118.0   10.5736
   94.65   1205.0   10.9772
    94.7   1227.0    11.077
   94.75   1157.0   10.7564
    94.8   1041.0   10.2029
   94.85    873.0    9.3434
    94.9    715.0    8.4558
   94.95    562.0    7.4967
    95.0    446.0    6.6783
   95.05    377.0      6.14
    95.1    332.0    5.7619
   95.15    297.0    5.4498
    95.2    282.0    5.3104
   95.25    276.0    5.2536
    95.3    264.0    5.1381
   95.35    261.0    5.1088
    95.4    266.0    5.1575
   95.45    261.0    5.1088
    95.5    253.0    5.0299
   95.55    258.0    5.0794
    95.6    262.0    5.1186
   95.65    260.0     5.099
    95.7    283.0    5.3198
   95.75    307.0    5.5408
    95.8    344.0    5.8652
   95.85    402.0    6.3403
    95.9    453.0    6.7305
   95.95    529.0    7.2732
    96.0    604.0    7.7717
   96.05    661.0    8.1302
    96.1    672.0    8.1976
   96.15    629.0     7.931
    96.2    588.0    7.6681
   96.25    510.0    7.1414
    96.3    440.0    6.6332
   96.35    377.0      6.14
    96.4    330.0    5.7446
   96.45    301.0    5.4863
    96.5    280.0    5.2915
   96.55    269.0    5.1865
    96.6    258.0    5.0794
   96.65    252.0      5.02
    96.7    251.0      5.01
   96.75    252.0      5.02
    96.8    256.0    5.0596
   96.85    253.0    5.0299
    96.9    253.0    5.0299
   96.95    253.0    5.0299
    97.0    262.0    5.1186
   97.05    265.0    5.1478
    97.1    284.0    5.3292
   97.15    291.0    5.3944
    97.2    323.0    5.6833
   97.25    374.0    6.1156
    97.3    431.0    6.5651
   97.35    511.0    7.1484
    97.4    602.0    7.7589
   97.45    678.0    8.2341
    97.5    743.0    8.6197
   97.55    756.0    8.6948
    97.6    717.0    8.4676
   97.65    657.0    8.1056
    97.7    581.0    7.6223
   97.75    490.0       7.0
    97.8    418.0    6.4653
   97.85    364.0    6.0332
    97.9    335.0    5.7879
   97.95    306.0    5.5317
    98.0    290.0    5.3852
   98.05    286.0    5.3479
    98.1    283.0    5.3198
   98.15    283.0    5.3198
    98.2    274.0    5.2345
   98.25    262.0    5.1186
    98.3    266.0    5.1575
   98.35    261.0    5.1088
    98.4    261.0    5.1088
   98.45    264.0    5.1381
    98.5    269.0    5.1865
   98.55    278.0    5.2726
    98.6    288.0    5.3666
   98.65    306.0    5.5317
    98.7    319.0     5.648
   98.75    330.0    5.7446
    98.8    343.0    5.8566
   98.85    341.0    5.8395
    98.9    325.0    5.7009
   98.95    318.0    5.6391
    99.0    298.0    5.4589
   99.05    299.0    5.4681
    99.1    288.0    5.3666
   99.15    309.0    5.5588
    99.2    344.0    5.8652
   99.25    382.0    6.1806
    99.3    422.0    6.4962
   99.35    470.0    6.8557
    99.4    512.0    7.1554
   99.45    514.0    7.1694
    99.5    515.0    7.1764
   99.55    488.0    6.9857
    99.6    440.0    6.6332
   99.65    396.0    6.2929
    99.7    366.0    6.0498
   99.75    332.0    5.7619
    99.8    311.0    5.5767
   99.85    305.0    5.5227
    99.9    300.0    5.4772
   99.95    293.0    5.4129
   100.0    286.0    5.3479
  100.05    306.0    5.5317
   100.1    313.0    5.5946
  100.15    317.0    5.6303
   100.2    327.0    5.7184
  100.25    343.0    5.8566
   100.3    330.0    5.7446
  100.35    320.0    5.6569
   100.4    307.0    5.5408
  100.45    298.0    5.4589
   100.5    282.0    5.3104
  100.55    274.0    5.2345
   100.6    266.0    5.1575
  100.65    274.0    5.2345
   100.7    271.0    5.2058
  100.75    274.0    5.2345
   100.8    290.0    5.3852
  100.85    302.0    5.4955
   100.9    321.0    5.6657
  100.95    350.0    5.9161
   101.0    367.0    6.0581
  101.05    386.0    6.2129
   101.1    394.0    6.2769
  101.15    370.0    6.0828
   101.2    356.0    5.9666
  101.25    332.0    5.7619
   101.3    310.0    5.5678
  101.35    288.0    5.3666
   101.4    279.0     5.282
  101.45    281.0    5.3009
   101.5    274.0    5.2345
  101.55    284.0    5.3292
   101.6    280.0    5.2915
  101.65    270.0    5.1962
   101.7    278.0    5.2726
  101.75    269.0    5.1865
   101.8    273.0    5.2249
  101.85    268.0    5.1769
   101.9    267.0    5.1672
  101.95    265.0    5.1478
   102.0    257.0    5.3437
  102.05    258.0    5.3541
   102.1    267.0    5.4467
  102.15    267.0    5.4467
   102.2    277.0    5.5478
  102.25    287.0     5.647
   102.3    302.0    5.7927
  102.35    332.0    6.0736
   102.4    360.0    6.3246
  102.45    411.0    6.7577
   102.5    457.0    7.1259
  102.55    524.0    7.6303
   102.6    608.0    8.2192
  102.65    699.0    8.8129
   102.7    861.0    9.7809
  102.75   1096.0   11.0353
   102.8   1377.0   12.3693
  102.85   1685.0   13.6829
   102.9   1901.0   14.5335
  102.95   2069.0   15.1621
   103.0   2016.0   14.9666
  103.05   1800.0   14.1421
   103.1   1500.0   12.9099
  103.15   1181.0   11.4552
   103.2    937.0   10.2035
  103.25    728.0    8.9938
   103.3    629.0      8.36
  103.35    576.0       8.0
   103.4    556.0    7.8599
  103.45    535.0      7.71
   103.5    519.0    7.5939
  103.55    486.0    7.3485
   103.6    465.0     7.188
  103.65    429.0    6.9041
   103.7    385.0    6.5405
  103.75    361.0    6.3333
   103.8    342.0    6.1644
  103.85    312.0    5.8878
   103.9    293.0    5.7057
  103.95    279.0    5.5678
   104.0    277.0    5.5478
  104.05    265.0    5.4263
   104.1    257.0    5.3437
  104.15    256.0    5.3333
   104.2    250.0    5.2705
  104.25    260.0    5.3748
   104.3    261.0    5.3852
  104.35    258.0    5.3541
   104.4    263.0    5.4058
  104.45    268.0    5.4569
   104.5    284.0    5.6174
  104.55    306.0     5.831
   104.6    325.0    6.0093
  104.65    337.0    6.1192
   104.7    337.0    6.1192
  104.75    344.0    6.1824
   104.8    340.0    6.1464
  104.85    337.0    6.1192
   104.9    328.0    6.0369
  104.95    321.0    5.9722
   105.0    306.0     5.831
  105.05    295.0    5.7252
   105.1    289.0    5.6667
  105.15    281.0    5.5877
   105.2    267.0    5.4467
  105.25    266.0    5.4365
   105.3    270.0    5.4772
  105.35    263.0    5.4058
   105.4    256.0    5.3333
  105.45    266.0    5.4365
   105.5    264.0     5.416
  105.55    259.0    5.3645
   105.6    261.0    5.3852
  105.65    261.0    5.3852
   105.7    258.0    5.3541
  105.75    253.0     5.302
   105.8    248.0    5.2493
  105.85    244.0    5.2068
   105.9    249.0    5.2599
  105.95    251.0     5.281
   106.0    245.0    5.2175
  106.05    245.0    5.2175
   106.1    247.0    5.2387
  106.15    247.0    5.2387
   106.2    254.0    5.3125
  106.25    259.0    5.3645
   106.3    250.0    5.2705
  106.35    251.0     5.281
   106.4    258.0    5.3541
  106.45    252.0    5.2915
   106.5    255.0    5.3229
  106.55    259.0    5.3645
   106.6    256.0    5.3333
  106.65    264.0     5.416
   106.7    268.0    5.4569
  106.75    281.0    5.5877
   106.8    303.0    5.8023
  106.85    331.0    6.0645
   106.9    371.0    6.4205
  106.95    420.0    6.8313
   107.0    484.0    7.3333
  107.05    532.0    7.6884
   107.1    576.0       8.0
  107.15    582.0    8.0416
   107.2    563.0    7.9092
  107.25    527.0    7.6522
   107.3    490.0    7.3786
  107.35    465.0     7.188
   107.4    467.0    7.2034
  107.45    449.0    7.0632
   107.5    416.0    6.7987
  107.55    393.0    6.6081
   107.6    366.0     6.377
  107.65    331.0    6.0645
   107.7    316.0    5.9255
  107.75    297.0    5.7446
   107.8    294.0    5.7155
  107.85    292.0     5.696
   107.9    286.0    5.6372
  107.95    295.0    5.7252
   108.0    306.0    6.1847
  108.05    315.0     6.275
   108.1    334.0    6.4614
  108.15    373.0    6.8282
   108.2    406.0    7.1239
  108.25    447.0     7.475
   108.3    499.0    7.8978
  108.35    507.0    7.9608
   108.4    506.0     7.953
  108.45    488.0    7.8102
   108.5    432.0    7.3485
  108.55    391.0    6.9911
   108.6    342.0    6.5383
  108.65    315.0     6.275
   108.7    292.0    6.0415
  108.75    275.0     5.863
   108.8    274.0    5.8523
  108.85    259.0    5.6899
   108.9    250.0    5.5902
  108.95    258.0    5.6789
   109.0    252.0    5.6125
  109.05    255.0    5.6458
   109.1    254.0    5.6347
  109.15    253.0    5.6236
   109.2    254.0    5.6347
  109.25    252.0    5.6125
   109.3    257.0    5.6679
  109.35    250.0    5.5902
   109.4    255.0    5.6458
  109.45    251.0    5.6013
   109.5    254.0    5.6347
  109.55    260.0    5.7009
   109.6    249.0     5.579
  109.65    253.0    5.6236
   109.7    254.0    5.6347
  109.75    259.0    5.6899
   109.8    268.0    5.7879
  109.85    270.0    5.8095
   109.9    284.0    5.9582
  109.95    305.0    6.1745
   110.0    322.0    6.3443
  110.05    364.0    6.7454
   110.1    417.0    7.2198
  110.15    470.0    7.6649
   110.2    573.0    8.4632
  110.25    678.0     9.206
   110.3    771.0    9.8171
  110.35    847.0   10.2896
   110.4    854.0    10.332
  110.45    794.0    9.9624
   110.5    720.0    9.4868
  110.55    611.0    8.7393
   110.6    520.0    8.0623
  110.65    463.0    7.6076
   110.7    412.0    7.1764
  110.75    399.0    7.0622
   110.8    416.0    7.2111
  110.85    428.0    7.3144
   110.9    432.0    7.3485
  110.95    420.0    7.2457
   111.0    402.0    7.0887
  111.05    364.0    6.7454
   111.1    348.0    6.5955
  111.15    334.0    6.4614
   111.2    321.0    6.3344
  111.25    330.0    6.4226
   111.3    342.0    6.5383
  111.35    380.0     6.892
   111.4    385.0    6.9372
  111.45    420.0    7.2457
   111.5    441.0    7.4246
  111.55    465.0     7.624
   111.6    444.0    7.4498
  111.65    406.0    7.1239
   111.7    383.0    6.9192
  111.75    345.0     6.567
   111.8    332.0     6.442
  111.85    321.0    6.3344
   111.9    308.0    6.2048
  111.95    292.0    6.0415
   112.0    303.0    6.1543
  112.05    314.0     6.265
   112.1    333.0    6.4517
  112.15    379.0    6.8829
   112.2    438.0    7.3993
  112.25    505.0    7.9451
   112.3    594.0    8.6168
  112.35    659.0    9.0761
   112.4    717.0     9.467
  112.45    738.0    9.6047
   112.5    710.0    9.4207
  112.55    642.0    8.9582
   112.6    547.0    8.2689
  112.65    492.0    7.8422
   112.7    421.0    7.2543
  112.75    386.0    6.9462
   112.8    344.0    6.5574
  112.85    337.0    6.4904
   112.9    350.0    6.6144
  112.95    364.0    6.7454
   113.0    415.0    7.2024
  113.05    506.0     7.953
   113.1    586.0    8.5586
  113.15    674.0    9.1788
   113.2    750.0    9.6825
  113.25    787.0    9.9184
   113.3    753.0    9.7018
  113.35    682.0    9.2331
   113.4    597.0    8.6386
  113.45    499.0    7.8978
   113.5    417.0    7.2198
  113.55    362.0    6.7268
   113.6    340.0    6.5192
  113.65    302.0    6.1441
   113.7    286.0    5.9791
  113.75    280.0    5.9161
   113.8    283.0    5.9477
  113.85    276.0    5.8737
   113.9    282.0    5.9372
  113.95    284.0    5.9582
   114.0    295.0    6.4918
  114.05    310.0    6.6548
   114.1    319.0    6.7507
  114.15    321.0    6.7718
   114.2    304.0      6.59
  114.25    298.0    6.5247
   114.3    293.0    6.4697
  114.35    283.0    6.3583
   114.4    277.0    6.2906
  114.45    269.0    6.1991
   114.5    265.0    6.1528
  114.55    277.0    6.2906
   114.6    283.0    6.3583
  114.65    283.0    6.3583
   114.7    293.0    6.4697
  114.75    303.0    6.5792
   114.8    320.0    6.7612
  114.85    316.0    6.7188
   114.9    331.0    6.8765
  114.95    346.0    7.0305
   115.0    327.0    6.8348
  115.05    328.0    6.8452
   115.1    306.0    6.6117
  115.15    291.0    6.4476
   115.2    286.0     6.392
  115.25    278.0    6.3019
   115.3    273.0     6.245
  115.35    267.0     6.176
   115.4    272.0    6.2335
  115.45    257.0    6.0592
   115.5    260.0    6.0945
  115.55    265.0    6.1528
   115.6    264.0    6.1412
  115.65    272.0    6.2335
   115.7    270.0    6.2106
  115.75    268.0    6.1875
   115.8    269.0    6.1991
  115.85    287.0    6.4031
   115.9    292.0    6.4587
  115.95    295.0    6.4918
   116.0    317.0    6.7295
  116.05    335.0    6.9179
   116.1    364.0    7.2111
  116.15    410.0    7.6532
   116.2    477.0    8.2549
  116.25    556.0    8.9123
   116.3    642.0    9.5768
  116.35    755.0   10.3854
   116.4    864.0   11.1098
  116.45    946.0   11.6251
   116.5    970.0   11.7716
  116.55    941.0   11.5943
   116.6    870.0   11.1484
  116.65    759.0   10.4129
   116.7    647.0     9.614
  116.75    540.0    8.7831
   116.8    468.0    8.1766
  116.85    418.0    7.7275
   116.9    379.0    7.3582
  116.95    381.0    7.3776
   117.0    405.0    7.6064
  117.05    446.0    7.9821
   117.1    476.0    8.2462
  117.15    523.0    8.6437
   117.2    561.0    8.9523
  117.25    555.0    8.9043
   117.3    529.0    8.6932
  117.35    485.0    8.3238
   117.4    436.0    7.8921
  117.45    398.0    7.5404
   117.5    355.0    7.1214
  117.55    322.0    6.7823
   117.6    304.0      6.59
  117.65    285.0    6.3808
   117.7    270.0    6.2106
  117.75    278.0    6.3019
   117.8    260.0    6.0945
  117.85    268.0    6.1875
   117.9    264.0    6.1412
  117.95    265.0    6.1528
   118.0    263.0    6.1296
  118.05    267.0     6.176
   118.1    286.0     6.392
  118.15    293.0    6.4697
   118.2    291.0    6.4476
  118.25    319.0    6.7507
   118.3    366.0    7.2309
  118.35    411.0    7.6625
   118.4    461.0    8.1152
  118.45    489.0    8.3581
   118.5    521.0    8.6272
  118.55    555.0    8.9043
   118.6    550.0    8.8641
  118.65    511.0     8.544
   118.7    486.0    8.3324
  118.75    436.0    7.8921
   118.8    392.0    7.4833
  118.85    368.0    7.2506
   118.9    330.0    6.8661
  118.95    328.0    6.8452
   119.0    343.0       7.0
  119.05    371.0    7.2801
   119.1    394.0    7.5024
  119.15    441.0    7.9373
   119.2    468.0    8.1766
  119.25    469.0    8.1854
   119.3    456.0    8.0711
  119.35    416.0     7.709
   119.4    394.0    7.5024
  119.45    361.0    7.1813
   119.5    330.0    6.8661
  119.55    312.0    6.6762
   119.6    293.0    6.4697
  119.65    285.0    6.3808
   119.7    286.0     6.392
  119.75    275.0    6.2678
   119.8    274.0    6.2564
  119.85    281.0    6.3358
   119.9    279.0    6.3133
  119.95    298.0    6.5247
   120.0    312.0    7.2111
  120.05    331.0    7.4274
   120.1    375.0    7.9057
  120.15    406.0     8.226
   120.2    452.0    8.6795
  120.25    506.0    9.1833
   120.3    546.0    9.5394
  120.35    568.0    9.7297
   120.4    589.0    9.9079
  120.45    588.0    9.8995
   120.5    537.0    9.4604
  120.55    498.0    9.1104
   120.6    463.0    8.7845
  120.65    402.0    8.1854
   120.7    386.0    8.0208
  120.75    361.0    7.7567
   120.8    350.0    7.6376
  120.85    330.0    7.4162
   120.9    338.0    7.5056
  120.95    359.0    7.7352
   121.0    364.0    7.7889
  121.05    385.0    8.0104
   121.1    436.0    8.5245
  121.15    474.0    8.8882
   121.2    544.0    9.5219
  121.25    647.0   10.3843
   121.3    695.0   10.7626
  121.35    763.0   11.2768
   121.4    802.0   11.5614
  121.45    812.0   11.6333
   121.5    756.0    11.225
  121.55    669.0   10.5594
   121.6    606.0   10.0499
  121.65    527.0    9.3719
   121.7    452.0    8.6795
  121.75    409.0    8.2563
   121.8    376.0    7.9162
  121.85    368.0    7.8316
   121.9    391.0    8.0726
  121.95    400.0     8.165
   122.0    444.0    8.6023
  122.05    481.0    8.9536
   122.1    518.0    9.2916
  122.15    556.0    9.6264
   122.2    577.0    9.8065
  122.25    575.0    9.7895
   122.3    557.0     9.635
  122.35    552.0    9.5917
   122.4    562.0    9.6782
  122.45    592.0    9.9331
   122.5    596.0    9.9666
  122.55    583.0    9.8573
   122.6    552.0    9.5917
  122.65    512.0    9.2376
   122.7    482.0    8.9629
  122.75    439.0    8.5538
   122.8    385.0    8.0104
  122.85    342.0    7.5498
   122.9    316.0    7.2572
  122.95    300.0    7.0711
   123.0    287.0    6.9162
  123.05    279.0    6.8191
   123.1    267.0    6.6708
  123.15    269.0    6.6958
   123.2    269.0    6.6958
  123.25    271.0    6.7206
   123.3    261.0    6.5955
  123.35    261.0    6.5955
   123.4    265.0    6.6458
  123.45    252.0    6.4807
   123.5    260.0    6.5828
  123.55    263.0    6.6207
   123.6    265.0    6.6458
  123.65    260.0    6.5828
   123.7    274.0    6.7577
  123.75    267.0    6.6708
   123.8    271.0    6.7206
  123.85    274.0    6.7577
   123.9    269.0    6.6958
  123.95    264.0    6.6332
   124.0    277.0    6.7946
  124.05    272.0     6.733
   124.1    277.0    6.7946
  124.15    282.0    6.8557
   124.2    290.0    6.9522
  124.25    293.0    6.9881
   124.3    294.0       7.0
  124.35    300.0    7.0711
   124.4    325.0    7.3598
  124.45    348.0    7.6158
   124.5    382.0    7.9791
  124.55    412.0    8.2865
   124.6    466.0    8.8129
  124.65    513.0    9.2466
   124.7    562.0    9.6782
  124.75    585.0    9.8742
   124.8    608.0   10.0664
  124.85    619.0   10.1571
   124.9    594.0    9.9499
  124.95    567.0    9.7211
   125.0    526.0     9.363
  125.05    518.0    9.2916
   125.1    501.0    9.1378
  125.15    480.0    8.9443
   125.2    470.0    8.8506
  125.25    465.0    8.8034
   125.3    469.0    8.8412
  125.35    458.0    8.7369
   125.4    438.0     8.544
  125.45    448.0     8.641
   125.5    470.0    8.8506
  125.55    470.0    8.8506
   125.6    500.0    9.1287
  125.65    505.0    9.1742
   125.7    519.0    9.3005
  125.75    517.0    9.2826
   125.8    517.0    9.2826
  125.85    502.0    9.1469
   125.9    460.0    8.7559
  125.95    410.0    8.2664
   126.0    375.0    8.6603
  126.05    347.0    8.3307
   126.1    347.0    8.3307
  126.15    318.0     7.975
   126.2    310.0     7.874
  126.25    302.0    7.7717
   126.3    311.0    7.8867
  126.35    326.0    8.0747
   126.4    320.0       8.0
  126.45    334.0    8.1731
   126.5    374.0    8.6487
  126.55    444.0    9.4234
   126.6    484.0    9.8387
  126.65    561.0   10.5925
   126.7    647.0   11.3754
  126.75    699.0   11.8237
   126.8    747.0   12.2229
  126.85    767.0   12.3855
   126.9    749.0   12.2393
  126.95    723.0    12.025
   127.0    664.0   11.5239
  127.05    619.0   11.1265
   127.1    578.0   10.7517
  127.15    553.0   10.5167
   127.2    541.0   10.4019
  127.25    530.0   10.2956
   127.3    530.0   10.2956
  127.35    525.0    10.247
   127.4    517.0   10.1686
  127.45    493.0    9.9298
   127.5    482.0    9.8183
  127.55    456.0    9.5499
   127.6    423.0    9.1978
  127.65    383.0    8.7521
   127.7    380.0    8.7178
  127.75    343.0    8.2825
   127.8    326.0    8.0747
  127.85    314.0    7.9246
   127.9    302.0    7.7717
  127.95    303.0    7.7846
   128.0    290.0    7.6158
  128.05    290.0    7.6158
   128.1    293.0    7.6551
  128.15    277.0    7.4431
   128.2    286.0    7.5631
  128.25    309.0    7.8613
   128.3    327.0     8.087
  128.35    357.0    8.4499
   128.4    396.0    8.8994
  128.45    468.0    9.6747
   128.5    529.0   10.2859
  128.55    590.0   10.8628
   128.6    649.0    11.393
  128.65    699.0   11.8237
   128.7    720.0      12.0
  128.75    705.0   11.8743
   128.8    672.0   11.5931
  128.85    635.0   11.2694
   128.9    604.0   10.9909
  128.95    564.0   10.6207
   129.0    548.0    10.469
  129.05    537.0   10.3634
   129.1    564.0   10.6207
  129.15    588.0   10.8444
   129.2    611.0   11.0544
  129.25    636.0   11.2783
   129.3    636.0   11.2783
  129.35    606.0   11.0091
   129.4    600.0   10.9545
  129.45    560.0    10.583
   129.5    512.0   10.1193
  129.55    473.0    9.7263
   129.6    453.0    9.5184
  129.65    428.0     9.252
   129.7    390.0    8.8318
  129.75    393.0    8.8657
   129.8    401.0    8.9554
  129.85    395.0    8.8882
   129.9    440.0    9.3808
  129.95    479.0    9.7877
   130.0    549.0   10.4785
  130.05    618.0   11.1176
   130.1    675.0   11.6189
  130.15    746.0   12.2147
   130.2    803.0   12.6728
  130.25    805.0   12.6886
   130.3    788.0   12.5539
  130.35    748.0   12.2311
   130.4    671.0   11.5845
  130.45    621.0   11.1445
   130.5    544.0   10.4307
  130.55    460.0    9.5917
   130.6    421.0    9.1761
  130.65    384.0    8.7636
   130.7    343.0    8.2825
  130.75    321.0    8.0125
   130.8    298.0    7.7201
  130.85    278.0    7.4565
   130.9    287.0    7.5763
  130.95    280.0    7.4833
   131.0    268.0    7.3212
  131.05    281.0    7.4967
   131.1    272.0    7.3756
  131.15    287.0    7.5763
   131.2    282.0      7.51
  131.25    284.0    7.5366
   131.3    300.0     7.746
  131.35    303.0    7.7846
   131.4    309.0    7.8613
  131.45    322.0     8.025
   131.5    340.0    8.2462
  131.55    347.0    8.3307
   131.6    370.0    8.6023
  131.65    401.0    8.9554
   131.7    420.0    9.1652
  131.75    451.0    9.4974
   131.8    491.0    9.9096
  131.85    508.0   10.0797
   131.9    530.0   10.2956
  131.95    531.0   10.3053
   132.0    522.0   10.2176
  132.05    484.0      11.0
   132.1    468.0   10.8167
  132.15    427.0    10.332
   132.2    379.0     9.734
  132.25    365.0    9.5525
   132.3    344.0    9.2736
  132.35    321.0    8.9582
   132.4    294.0    8.5732
  132.45    291.0    8.5294
   132.5    284.0    8.4261
  132.55    264.0     8.124
   132.6    281.0    8.3815
  132.65    261.0    8.0777
   132.7    256.0       8.0
  132.75    261.0    8.0777
   132.8    266.0    8.1548
  132.85    264.0     8.124
   132.9    258.0    8.0312
  132.95    262.0    8.0932
   133.0    250.0    7.9057
  133.05    261.0    8.0777
   133.1    257.0    8.0156
  133.15    253.0     7.953
   133.2    247.0    7.8581
  133.25    259.0    8.0467
   133.3    259.0    8.0467
  133.35    256.0       8.0
   133.4    253.0     7.953
  133.45    256.0       8.0
   133.5    257.0    8.0156
  133.55    261.0    8.0777
   133.6    246.0    7.8422
  133.65    247.0    7.8581
   133.7    250.0    7.9057
  133.75    270.0    8.2158
   133.8    254.0    7.9687
  133.85    245.0    7.8262
   133.9    254.0    7.9687
  133.95    274.0    8.2765
   134.0    272.0    8.2462
  134.05    253.0     7.953
   134.1    260.0    8.0623
  134.15    272.0    8.2462
   134.2    265.0    8.1394
  134.25    267.0    8.1701
   134.3    276.0    8.3066
  134.35    280.0    8.3666
   134.4    289.0       8.5
  134.45    318.0    8.9163
   134.5    331.0    9.0967
  134.55    366.0    9.5656
   134.6    386.0    9.8234
  134.65    426.0   10.3199
   134.7    461.0   10.7355
  134.75    495.0   11.1243
   134.8    532.0   11.5326
  134.85    591.0   12.1552
   134.9    627.0     12.52
  134.95    616.0   12.4097
   135.0    634.0   12.5897
  135.05    668.0   12.9228
   135.1    645.0   12.6984
  135.15    620.0   12.4499
   135.2    607.0   12.3187
  135.25    560.0   11.8322
   135.3    518.0   11.3798
  135.35    470.0   10.8397
   135.4    445.0   10.5475
  135.45    398.0     9.975
   135.5    376.0    9.6954
  135.55    336.0    9.1652
   135.6    325.0    9.0139
  135.65    301.0    8.6747
   135.7    303.0    8.7034
  135.75    275.0    8.2916
   135.8    273.0    8.2614
  135.85    288.0    8.4853
   135.9    278.0    8.3367
  135.95    274.0    8.2765
   136.0    273.0    8.2614
  136.05    260.0    8.0623
   136.1    268.0    8.1854
  136.15    276.0    8.3066
   136.2    276.0    8.3066
  136.25    294.0    8.5732
   136.3    293.0    8.5586
  136.35    277.0    8.3217
   136.4    292.0     8.544
  136.45    284.0    8.4261
   136.5    273.0    8.2614
  136.55    291.0    8.5294
   136.6    287.0    8.4705
  136.65    303.0    8.7034
   136.7    306.0    8.7464
  136.75    315.0    8.8741
   136.8    333.0    9.1241
  136.85    367.0    9.5786
   136.9    387.0    9.8362
  136.95    404.0   10.0499
   137.0    440.0   10.4881
  137.05    480.0   10.9545
   137.1    533.0   11.5434
  137.15    601.0   12.2577
   137.2    620.0   12.4499
  137.25    647.0   12.7181
   137.3    663.0   12.8744
  137.35    652.0   12.7671
   137.4    665.0   12.8938
  137.45    630.0   12.5499
   137.5    628.0     12.53
  137.55    577.0   12.0104
   137.6    520.0   11.4018
  137.65    472.0   10.8628
   137.7    453.0   10.6419
  137.75    413.0   10.1612
   137.8    412.0   10.1489
  137.85    396.0    9.9499
   137.9    361.0   10.9697
  137.95    370.0   11.1056
   138.0    402.0   11.5758
  138.05    389.0   11.3871
   138.1    423.0   11.8743
  138.15    452.0   12.2746
   138.2    469.0   12.5033
  138.25    498.0   12.8841
   138.3    535.0   13.3541
  138.35    538.0   13.3915
   138.4    564.0   13.7113
  138.45    572.0   13.8082
   138.5    585.0   13.9642
  138.55    574.0   13.8323
   138.6    543.0   13.4536
  138.65    495.0   12.8452
   138.7    484.0   12.7017
  138.75    460.0   12.3828
   138.8    428.0   11.9443
  138.85    375.0   11.1803
   138.9    341.0   10.6615
  138.95    340.0   10.6458
   139.0    312.0    10.198
  139.05    309.0   10.1489
   139.1    288.0     9.798
  139.15    271.0    9.5044
   139.2    273.0    9.5394
  139.25    267.0     9.434
   139.3    255.0    9.2195
  139.35    266.0    9.4163
   139.4    261.0    9.3274
  139.45    269.0    9.4692
   139.5    257.0    9.2556
  139.55    249.0    9.1104
   139.6    245.0     9.037
  139.65    259.0    9.2916
   139.7    258.0    9.2736
  139.75    259.0    9.2916
   139.8    268.0    9.4516
  139.85    279.0    9.6437
   139.9    256.0    9.2376
  139.95    259.0    9.2916
   140.0    287.0    9.7809
  140.05    269.0    9.4692
   140.1    281.0    9.6782
  140.15    268.0    9.4516
   140.2    277.0     9.609
  140.25    278.0    9.6264
   140.3    287.0    9.7809
  140.35    277.0     9.609
   140.4    285.0    9.7468
  140.45    284.0    9.7297
   140.5    278.0    9.6264
  140.55    288.0     9.798
   140.6    279.0    9.6437
  140.65    287.0    9.7809
   140.7    289.0     9.815
  140.75    308.0   10.1325
   140.8    308.0   10.1325
  140.85    288.0     9.798
   140.9    302.0   10.0333
  140.95    295.0    9.9163
   141.0    301.0   10.0167
  141.05    303.0   10.0499
   141.1    294.0    9.8995
  141.15    287.0    9.7809
   141.2    279.0    9.6437
  141.25    279.0    9.6437
   141.3    276.0    9.5917
  141.35    275.0    9.5743
   141.4    264.0    9.3808
  141.45    274.0    9.5568
   141.5    269.0    9.4692
  141.55    269.0    9.4692
   141.6    268.0    9.4516
  141.65    261.0    9.3274
   141.7    256.0    9.2376
  141.75    284.0    9.7297
   141.8    279.0    9.6437
  141.85    280.0    9.6609
   141.9    296.0    9.9331
  141.95    297.0    9.9499
   142.0    296.0    9.9331
  142.05    308.0   10.1325
   142.1    301.0   10.0167
  142.15    300.0      10.0
   142.2    297.0    9.9499
  142.25    300.0      10.0
   142.3    289.0     9.815
  142.35    290.0    9.8319
   142.4    274.0    9.5568
  142.45    275.0    9.5743
   142.5    264.0    9.3808
  142.55    262.0    9.3452
   142.6    249.0    9.1104
  142.65    251.0    9.1469
   142.7    248.0    9.0921
  142.75    252.0    9.1652
   142.8    249.0    9.1104
  142.85    249.0    9.1104
   142.9    262.0    9.3452
  142.95    251.0    9.1469
   143.0    239.0    8.9256
  143.05    263.0     9.363
   143.1    265.0    9.3986
  143.15    240.0    8.9443
   143.2    236.0    8.8694
  143.25    250.0    9.1287
   143.3    248.0    9.0921
  143.35    248.0    9.0921
   143.4    254.0    9.2014
  143.45    262.0    9.3452
   143.5    252.0    9.1652
  143.55    246.0    9.0554
   143.6    250.0    9.1287
  143.65    251.0    9.1469
   143.7    247.0    9.0738
  143.75    248.0    9.0921
   143.8    254.0    9.2014
  143.85    236.0    8.8694
   143.9    251.0    9.1469
  143.95    247.0    9.0738
   144.0    254.0    9.2014
  144.05    248.0    9.0921
   144.1    259.0   11.3798
  144.15    259.0   11.3798
   144.2    274.0   11.7047
  144.25    263.0   11.4673
   144.3    287.0   11.9791
  144.35    283.0   11.8954
   144.4    281.0   11.8533
  144.45    296.0   12.1655
   144.5    292.0    12.083
  144.55    323.0   12.7083
   144.6    330.0   12.8452
  144.65    339.0   13.0192
   144.7    358.0   13.3791
  144.75    349.0   13.2098
   144.8    365.0   13.5093
  144.85    399.0   14.1244
   144.9    406.0   14.2478
  144.95    428.0   14.6287
   145.0    413.0   14.3701
  145.05    439.0   14.8155
   145.1    418.0   14.4568
  145.15    425.0   14.5774
   145.2    411.0   14.3353
  145.25    417.0   14.4395
   145.3    391.0   13.9821
  145.35    393.0   14.0178
   145.4    386.0   13.8924
  145.45    359.0   13.3978
   145.5    381.0   13.8022
  145.55    363.0   13.4722
   145.6    364.0   13.4907
  145.65    375.0   13.6931
   145.7    379.0   13.7659
  145.75    392.0      14.0
   145.8    402.0   14.1774
  145.85    436.0   14.7648
   145.9    451.0   15.0167
  145.95    463.0   15.2151
   146.0    452.0   15.0333
  146.05    449.0   14.9833
   146.1    479.0   15.4758
  146.15    485.0   15.5724
   146.2    484.0   15.5563
  146.25    472.0   15.3623
   146.3    508.0   15.9374
  146.35    518.0   16.0935
   146.4    523.0    16.171
  146.45    561.0   16.7481
   146.5    559.0   16.7183
  146.55    573.0   16.9263
   146.6    545.0   16.5076
  146.65    561.0   16.7481
   146.7    568.0   16.8523
  146.75    573.0   16.9263
   146.8    562.0   16.7631
  146.85    573.0   16.9263
   146.9    565.0   16.8077
  146.95    499.0   15.7956
   147.0    496.0    15.748
  147.05    488.0   15.6205
   147.1    449.0   14.9833
  147.15    442.0   14.8661
   147.2    391.0   13.9821
  147.25    387.0   13.9104
   147.3    390.0   13.9642
  147.35    359.0   13.3978
   147.4    338.0      13.0
  147.45    321.0   12.6689
   147.5    322.0   12.6886
  147.55    327.0   12.7867
   147.6    338.0      13.0
  147.65    306.0   12.3693
   147.7    290.0   12.0416
  147.75    320.0   12.6491
   147.8    308.0   12.4097
  147.85    300.0   12.2474
   147.9    307.0   12.3895
  147.95    306.0   12.3693
   148.0    314.0     12.53
  148.05    318.0   12.6095
   148.1    298.0   12.2066
  148.15    313.0     12.51
   148.2    303.0   12.3085
  148.25    302.0   12.2882
   148.3    333.0   12.9035
  148.35    285.0   11.9373
   148.4    312.0     12.49
  148.45    312.0     12.49
   148.5    285.0   11.9373
  148.55    290.0   12.0416
   148.6    288.0      12.0
  148.65    294.0   12.1244
   148.7    314.0     12.53
  148.75    300.0   12.2474
   148.8    306.0   12.3693
  148.85    293.0   12.1037
   148.9    299.0    12.227
  148.95    328.0   12.8062
   149.0    325.0   12.7475
  149.05    328.0   12.8062
   149.1    317.0   12.5897
  149.15    292.0    12.083
   149.2    321.0   12.6689
  149.25    291.0   12.0623
   149.3    302.0   12.2882
  149.35    291.0   12.0623
   149.4    297.0   12.1861
  149.45    301.0   12.2678
   149.5    270.0   11.6189
  149.55    262.0   11.4455
   149.6    277.0   11.7686
  149.65    258.0   11.3578
   149.7    258.0   11.3578
  149.75    243.0   11.0227
   149.8    269.0   11.5974
  149.85    257.0   11.3358
   149.9    257.0   11.3358
  149.95    240.0   10.9545
   150.0    282.0   16.7929
  150.05    245.0   15.6525
   150.1    243.0   15.5885
  150.15    260.0   16.1245
   150.2    255.0   15.9687
  150.25    275.0   16.5831
   150.3    255.0   15.9687
  150.35    270.0   16.4317
   150.4    286.0   16.9115
  150.45    271.0   16.4621
   150.5    258.0   16.0624
  150.55    309.0   17.5784
   150.6    299.0   17.2916
  150.65    297.0   17.2337
   150.7    304.0   17.4356
  150.75    319.0   17.8606
   150.8    314.0     17.72
  150.85    290.0   17.0294
   150.9    338.0   18.3848
  150.95    316.0   17.7764
   151.0    341.0   18.4662
  151.05    384.0   19.5959
   151.1    360.0   18.9737
  151.15    367.0   19.1572
   151.2    383.0   19.5704
  151.25    366.0   19.1311
   151.3    369.0   19.2094
  151.35    363.0   19.0526
   151.4    332.0   18.2209
  151.45    325.0   18.0278
   151.5    334.0   18.2757
  151.55    373.0   19.3132
   151.6    336.0   18.3303
  151.65    313.0   17.6918
   151.7    339.0    18.412
  151.75    325.0   18.0278
   151.8    307.0   17.5214
  151.85    277.0   16.6433
   151.9    286.0   16.9115
  151.95    305.0   17.4642
   152.0    277.0   16.6433
  152.05    262.0   16.1864
   152.1    262.0   16.1864
  152.15    241.0   15.5242
   152.2    251.0    15.843
  152.25    260.0   16.1245
   152.3    245.0   15.6525
  152.35    249.0   15.7797
   152.4    260.0   16.1245
  152.45    256.0      16.0
   152.5    242.0   15.5563
  152.55    258.0   16.0624
   152.6    248.0    15.748
  152.65    235.0   15.3297
   152.7    245.0   15.6525
  152.75    248.0    15.748
   152.8    281.0   16.7631
  152.85    228.0   15.0997
   152.9    230.0   15.1658
  152.95    212.0   14.5602
   153.0    237.0   15.3948
  153.05    244.0   15.6205
   153.1    231.0   15.1987
  153.15    266.0   16.3095
   153.2    231.0   15.1987
  153.25    234.0   15.2971
   153.3    247.0   15.7162
  153.35    264.0   16.2481
   153.4    247.0   15.7162
  153.45    261.0   16.1555
   153.5    223.0   14.9332
  153.55    242.0   15.5563
   153.6    271.0   16.4621
  153.65    247.0   15.7162
   153.7    249.0   15.7797
  153.75    251.0    15.843
   153.8    232.0   15.2315
  153.85    225.0      15.0
   153.9    255.0   15.9687
  153.95    209.0   14.4568
   154.0    266.0   16.3095
  154.05    255.0   15.9687
   154.1    273.0   16.5227
  154.15    250.0   15.8114
   154.2    234.0   15.2971
  154.25    257.0   16.0312
   154.3    250.0   15.8114
  154.35    270.0   16.4317
   154.4    262.0   16.1864
  154.45    281.0   16.7631
   154.5    257.0   16.0312
  154.55    260.0   16.1245
   154.6    257.0   16.0312
  154.65    242.0   15.5563
   154.7    255.0   15.9687
  154.75    250.0   15.8114
   154.8    274.0   16.5529
  154.85    288.0   16.9706
   154.9    275.0   16.5831
  154.95    277.0   16.6433
   155.0    278.0   16.6733
  155.05    264.0   16.2481
   155.1    298.0   17.2627
  155.15    312.0   17.6635
   155.2    282.0   16.7929
  155.25    314.0     17.72
   155.3    341.0   18.4662
  155.35    314.0     17.72
   155.4    295.0   17.1756
  155.45    326.0   18.0555
